step    Monochromator-step  cps
1.000	3800.000	1010.000
2.000	3802.000	820.000
3.000	3804.000	1060.000
4.000	3806.000	810.000
5.000	3808.000	980.000
6.000	3810.000	850.000
7.000	3812.000	810.000
8.000	3814.000	980.000
9.000	3816.000	1190.000
10.000	3818.000	890.000
11.000	3820.000	1030.000
12.000	3822.000	1000.000
13.000	3824.000	980.000
14.000	3826.000	860.000
15.000	3828.000	1260.000
16.000	3830.000	940.000
17.000	3832.000	1130.000
18.000	3834.000	920.000
19.000	3836.000	940.000
20.000	3838.000	890.000
21.000	3840.000	1070.000
22.000	3842.000	980.000
23.000	3844.000	1280.000
24.000	3846.000	980.000
25.000	3848.000	970.000
26.000	3850.000	3400.000
27.000	3852.000	1290.000
28.000	3854.000	820.000
29.000	3856.000	1270.000
30.000	3858.000	920.000
31.000	3860.000	1300.000
32.000	3862.000	1150.000
33.000	3864.000	920.000
34.000	3866.000	1140.000
35.000	3868.000	900.000
36.000	3870.000	1040.000
37.000	3872.000	1680.000
38.000	3874.000	1840.000
39.000	3876.000	950.000
40.000	3878.000	1320.000
41.000	3880.000	830.000
42.000	3882.000	930.000
43.000	3884.000	770.000
44.000	3886.000	2630.000
45.000	3888.000	960.000
46.000	3890.000	1190.000
47.000	3892.000	1240.000
48.000	3894.000	770.000
49.000	3896.000	1080.000
50.000	3898.000	990.000
51.000	3900.000	820.000
52.000	3902.000	1250.000
53.000	3904.000	890.000
54.000	3906.000	940.000
55.000	3908.000	1160.000
56.000	3910.000	860.000
57.000	3912.000	1380.000
58.000	3914.000	1130.000
59.000	3916.000	1560.000
60.000	3918.000	1010.000
61.000	3920.000	900.000
62.000	3922.000	920.000
63.000	3924.000	1930.000
64.000	3926.000	960.000
65.000	3928.000	880.000
66.000	3930.000	990.000
67.000	3932.000	710.000
68.000	3934.000	1360.000
69.000	3936.000	1090.000
70.000	3938.000	1290.000
71.000	3940.000	920.000
72.000	3942.000	880.000
73.000	3944.000	2260.000
74.000	3946.000	1970.000
75.000	3948.000	700.000
76.000	3950.000	7550.000
77.000	3952.000	1020.000
78.000	3954.000	1480.000
79.000	3956.000	1110.000
80.000	3958.000	1100.000
81.000	3960.000	760.000
82.000	3962.000	1100.000
83.000	3964.000	1230.000
84.000	3966.000	950.000
85.000	3968.000	2470.000
86.000	3970.000	690.000
87.000	3972.000	1120.000
88.000	3974.000	1060.000
89.000	3976.000	1390.000
90.000	3978.000	1050.000
91.000	3980.000	1030.000
92.000	3982.000	70160.000
93.000	3984.000	1000.000
94.000	3986.000	1120.000
95.000	3988.000	900.000
96.000	3990.000	1220.000
97.000	3992.000	920.000
98.000	3994.000	910.000
99.000	3996.000	880.000
100.000	3998.000	710.000
101.000	4000.000	980.000
102.000	4002.000	800.000
103.000	4004.000	860.000
104.000	4006.000	610.000
105.000	4008.000	670.000
106.000	4010.000	730.000
107.000	4012.000	1440.000
108.000	4014.000	1300.000
109.000	4016.000	710.000
110.000	4018.000	810.000
111.000	4020.000	720.000
112.000	4022.000	720.000
113.000	4024.000	800.000
114.000	4026.000	940.000
115.000	4028.000	650.000
116.000	4030.000	640.000
117.000	4032.000	760.000
118.000	4034.000	690.000
119.000	4036.000	870.000
120.000	4038.000	580.000
121.000	4040.000	670.000
122.000	4042.000	1070.000
123.000	4044.000	790.000
124.000	4046.000	690.000
125.000	4048.000	750.000
126.000	4050.000	610.000
127.000	4052.000	730.000
128.000	4054.000	700.000
129.000	4056.000	840.000
130.000	4058.000	610.000
131.000	4060.000	2920.000
132.000	4062.000	2690.000
133.000	4064.000	650.000
134.000	4066.000	780.000
135.000	4068.000	920.000
136.000	4070.000	530.000
137.000	4072.000	810.000
138.000	4074.000	780.000
139.000	4076.000	730.000
140.000	4078.000	1260.000
141.000	4080.000	1010.000
142.000	4082.000	1030.000
143.000	4084.000	870.000
144.000	4086.000	1150.000
145.000	4088.000	770.000
146.000	4090.000	1940.000
147.000	4092.000	2840.000
148.000	4094.000	870.000
149.000	4096.000	900.000
150.000	4098.000	680.000
151.000	4100.000	670.000
152.000	4102.000	2030.000
153.000	4104.000	1230.000
154.000	4106.000	620.000
155.000	4108.000	860.000
156.000	4110.000	580.000
157.000	4112.000	860.000
158.000	4114.000	620.000
159.000	4116.000	770.000
160.000	4118.000	540.000
161.000	4120.000	700.000
162.000	4122.000	720.000
163.000	4124.000	680.000
164.000	4126.000	680.000
165.000	4128.000	590.000
166.000	4130.000	880.000
167.000	4132.000	650.000
168.000	4134.000	590.000
169.000	4136.000	690.000
170.000	4138.000	570.000
171.000	4140.000	750.000
172.000	4142.000	650.000
173.000	4144.000	660.000
174.000	4146.000	580.000
175.000	4148.000	530.000
176.000	4150.000	720.000
177.000	4152.000	640.000
178.000	4154.000	650.000
179.000	4156.000	660.000
180.000	4158.000	640.000
181.000	4160.000	700.000
182.000	4162.000	810.000
183.000	4164.000	680.000
184.000	4166.000	680.000
185.000	4168.000	700.000
186.000	4170.000	790.000
187.000	4172.000	920.000
188.000	4174.000	550.000
189.000	4176.000	550.000
190.000	4178.000	660.000
191.000	4180.000	760.000
192.000	4182.000	540.000
193.000	4184.000	630.000
194.000	4186.000	570.000
195.000	4188.000	990.000
196.000	4190.000	640.000
197.000	4192.000	740.000
198.000	4194.000	620.000
199.000	4196.000	660.000
200.000	4198.000	750.000
201.000	4200.000	670.000
202.000	4202.000	630.000
203.000	4204.000	780.000
204.000	4206.000	520.000
205.000	4208.000	650.000
206.000	4210.000	850.000
207.000	4212.000	880.000
208.000	4214.000	720.000
209.000	4216.000	690.000
210.000	4218.000	1010.000
211.000	4220.000	186590.000
212.000	4222.000	700.000
213.000	4224.000	870.000
214.000	4226.000	590.000
215.000	4228.000	920.000
216.000	4230.000	810.000
217.000	4232.000	520.000
218.000	4234.000	800.000
219.000	4236.000	600.000
220.000	4238.000	900.000
221.000	4240.000	890.000
222.000	4242.000	660.000
223.000	4244.000	600.000
224.000	4246.000	750.000
225.000	4248.000	670.000
226.000	4250.000	1000.000
227.000	4252.000	600.000
228.000	4254.000	760.000
229.000	4256.000	710.000
230.000	4258.000	630.000
231.000	4260.000	480.000
232.000	4262.000	740.000
233.000	4264.000	860.000
234.000	4266.000	850.000
235.000	4268.000	1360.000
236.000	4270.000	2030.000
237.000	4272.000	720.000
238.000	4274.000	620.000
239.000	4276.000	620.000
240.000	4278.000	660.000
241.000	4280.000	1650.000
242.000	4282.000	820.000
243.000	4284.000	770.000
244.000	4286.000	660.000
245.000	4288.000	630.000
246.000	4290.000	680.000
247.000	4292.000	890.000
248.000	4294.000	2080.000
249.000	4296.000	2140.000
250.000	4298.000	1000.000
251.000	4300.000	1070.000
252.000	4302.000	1690.000
253.000	4304.000	910.000
254.000	4306.000	680.000
255.000	4308.000	870.000
256.000	4310.000	600.000
257.000	4312.000	660.000
258.000	4314.000	850.000
259.000	4316.000	760.000
260.000	4318.000	710.000
261.000	4320.000	780.000
262.000	4322.000	880.000
263.000	4324.000	1620.000
264.000	4326.000	900.000
265.000	4328.000	880.000
266.000	4330.000	900.000
267.000	4332.000	1750.000
268.000	4334.000	630.000
269.000	4336.000	1900.000
270.000	4338.000	1970.000
271.000	4340.000	5470.000
272.000	4342.000	800.000
273.000	4344.000	740.000
274.000	4346.000	3460.000
275.000	4348.000	880.000
276.000	4350.000	770.000
277.000	4352.000	700.000
278.000	4354.000	610.000
279.000	4356.000	1160.000
280.000	4358.000	870.000
281.000	4360.000	1090.000
282.000	4362.000	780.000
283.000	4364.000	680.000
284.000	4366.000	1150.000
285.000	4368.000	780.000
286.000	4370.000	560.000
287.000	4372.000	1190.000
288.000	4374.000	780.000
289.000	4376.000	1180.000
290.000	4378.000	910.000
291.000	4380.000	910.000
292.000	4382.000	770.000
293.000	4384.000	1000.000
294.000	4386.000	860.000
295.000	4388.000	870.000
296.000	4390.000	860.000
297.000	4392.000	700.000
298.000	4394.000	1170.000
299.000	4396.000	1000.000
300.000	4398.000	960.000
301.000	4400.000	1520.000
302.000	4402.000	1110.000
303.000	4404.000	730.000
304.000	4406.000	930.000
305.000	4408.000	1080.000
306.000	4410.000	880.000
307.000	4412.000	1060.000
308.000	4414.000	490.000
309.000	4416.000	720.000
310.000	4418.000	930.000
311.000	4420.000	640.000
312.000	4422.000	1000.000
313.000	4424.000	630.000
314.000	4426.000	810.000
315.000	4428.000	720.000
316.000	4430.000	1110.000
317.000	4432.000	580.000
318.000	4434.000	600.000
319.000	4436.000	1140.000
320.000	4438.000	600.000
321.000	4440.000	420.000
322.000	4442.000	1410.000
323.000	4444.000	970.000
324.000	4446.000	980.000
325.000	4448.000	540.000
326.000	4450.000	670.000
327.000	4452.000	690.000
328.000	4454.000	1410.000
329.000	4456.000	850.000
330.000	4458.000	2980.000
331.000	4460.000	1630.000
332.000	4462.000	730.000
333.000	4464.000	560.000
334.000	4466.000	600.000
335.000	4468.000	510.000
336.000	4470.000	580.000
337.000	4472.000	730.000
338.000	4474.000	400.000
339.000	4476.000	570.000
340.000	4478.000	580.000
341.000	4480.000	540.000
342.000	4482.000	390.000
343.000	4484.000	750.000
344.000	4486.000	740.000
345.000	4488.000	500.000
346.000	4490.000	590.000
347.000	4492.000	480.000
348.000	4494.000	540.000
349.000	4496.000	1230.000
350.000	4498.000	650.000
351.000	4500.000	580.000
352.000	4502.000	590.000
353.000	4504.000	760.000
354.000	4506.000	5960.000
355.000	4508.000	590.000
356.000	4510.000	7930.000
357.000	4512.000	10320.000
358.000	4514.000	530.000
359.000	4516.000	710.000
360.000	4518.000	610.000
361.000	4520.000	450.000
362.000	4522.000	470.000
363.000	4524.000	600.000
364.000	4526.000	710.000
365.000	4528.000	570.000
366.000	4530.000	500.000
367.000	4532.000	820.000
368.000	4534.000	440.000
369.000	4536.000	740.000
370.000	4538.000	880.000
371.000	4540.000	700.000
372.000	4542.000	580.000
373.000	4544.000	830.000
374.000	4546.000	960.000
375.000	4548.000	760.000
376.000	4550.000	820.000
377.000	4552.000	530.000
378.000	4554.000	420.000
379.000	4556.000	530.000
380.000	4558.000	670.000
381.000	4560.000	1350.000
382.000	4562.000	2080.000
383.000	4564.000	1210.000
384.000	4566.000	560.000
385.000	4568.000	1800.000
386.000	4570.000	1160.000
387.000	4572.000	590.000
388.000	4574.000	490.000
389.000	4576.000	530.000
390.000	4578.000	560.000
391.000	4580.000	600.000
392.000	4582.000	560.000
393.000	4584.000	370.000
394.000	4586.000	540.000
395.000	4588.000	550.000
396.000	4590.000	470.000
397.000	4592.000	1360.000
398.000	4594.000	420.000
399.000	4596.000	510.000
400.000	4598.000	500.000
401.000	4600.000	490.000
402.000	4602.000	640.000
403.000	4604.000	420.000
404.000	4606.000	540.000
405.000	4608.000	490.000
406.000	4610.000	520.000
407.000	4612.000	380.000
408.000	4614.000	610.000
409.000	4616.000	500.000
410.000	4618.000	460.000
411.000	4620.000	770.000
412.000	4622.000	500.000
413.000	4624.000	500.000
414.000	4626.000	290.000
415.000	4628.000	520.000
416.000	4630.000	380.000
417.000	4632.000	330.000
418.000	4634.000	410.000
419.000	4636.000	580.000
420.000	4638.000	520.000
421.000	4640.000	500.000
422.000	4642.000	520.000
423.000	4644.000	450.000
424.000	4646.000	510.000
425.000	4648.000	700.000
426.000	4650.000	550.000
427.000	4652.000	750.000
428.000	4654.000	460.000
429.000	4656.000	380.000
430.000	4658.000	420.000
431.000	4660.000	630.000
432.000	4662.000	480.000
433.000	4664.000	960.000
434.000	4666.000	480.000
435.000	4668.000	460.000
436.000	4670.000	650.000
437.000	4672.000	850.000
438.000	4674.000	580.000
439.000	4676.000	590.000
440.000	4678.000	360.000
441.000	4680.000	850.000
442.000	4682.000	560.000
443.000	4684.000	410.000
444.000	4686.000	490.000
445.000	4688.000	770.000
446.000	4690.000	650.000
447.000	4692.000	390.000
448.000	4694.000	500.000
449.000	4696.000	540.000
450.000	4698.000	530.000
451.000	4700.000	910.000
452.000	4702.000	840.000
453.000	4704.000	360.000
454.000	4706.000	500.000
455.000	4708.000	840.000
456.000	4710.000	1250.000
457.000	4712.000	530.000
458.000	4714.000	640.000
459.000	4716.000	500.000
460.000	4718.000	500.000
461.000	4720.000	820.000
462.000	4722.000	500.000
463.000	4724.000	540.000
464.000	4726.000	770.000
465.000	4728.000	700.000
466.000	4730.000	790.000
467.000	4732.000	870.000
468.000	4734.000	3110.000
469.000	4736.000	2320.000
470.000	4738.000	28620.000
471.000	4740.000	2020.000
472.000	4742.000	1700.000
473.000	4744.000	1410.000
474.000	4746.000	950.000
475.000	4748.000	980.000
476.000	4750.000	1990.000
477.000	4752.000	1000.000
478.000	4754.000	690.000
479.000	4756.000	720.000
480.000	4758.000	560.000
481.000	4760.000	780.000
482.000	4762.000	580.000
483.000	4764.000	800.000
484.000	4766.000	600.000
485.000	4768.000	670.000
486.000	4770.000	530.000
487.000	4772.000	580.000
488.000	4774.000	490.000
489.000	4776.000	360.000
490.000	4778.000	840.000
491.000	4780.000	520.000
492.000	4782.000	690.000
493.000	4784.000	490.000
494.000	4786.000	1200.000
495.000	4788.000	560.000
496.000	4790.000	430.000
497.000	4792.000	470.000
498.000	4794.000	440.000
499.000	4796.000	920.000
500.000	4798.000	590.000
501.000	4800.000	570.000
502.000	4802.000	760.000
503.000	4804.000	330.000
504.000	4806.000	4620.000
505.000	4808.000	370.000
506.000	4810.000	410.000
507.000	4812.000	870.000
508.000	4814.000	770.000
509.000	4816.000	1040.000
510.000	4818.000	320.000
511.000	4820.000	540.000
512.000	4822.000	780.000
513.000	4824.000	350.000
514.000	4826.000	510.000
515.000	4828.000	630.000
516.000	4830.000	400.000
517.000	4832.000	710.000
518.000	4834.000	540.000
519.000	4836.000	360.000
520.000	4838.000	560.000
521.000	4840.000	510.000
522.000	4842.000	690.000
523.000	4844.000	560.000
524.000	4846.000	1490.000
525.000	4848.000	460.000
526.000	4850.000	3080.000
527.000	4852.000	370.000
528.000	4854.000	570.000
529.000	4856.000	930.000
530.000	4858.000	550.000
531.000	4860.000	490.000
532.000	4862.000	380.000
533.000	4864.000	360.000
534.000	4866.000	350.000
535.000	4868.000	510.000
536.000	4870.000	480.000
537.000	4872.000	400.000
538.000	4874.000	270.000
539.000	4876.000	370.000
540.000	4878.000	450.000
541.000	4880.000	1200.000
542.000	4882.000	250.000
543.000	4884.000	370.000
544.000	4886.000	610.000
545.000	4888.000	1060.000
546.000	4890.000	680.000
547.000	4892.000	580.000
548.000	4894.000	690.000
549.000	4896.000	370.000
550.000	4898.000	380.000
551.000	4900.000	400.000
552.000	4902.000	470.000
553.000	4904.000	500.000
554.000	4906.000	360.000
555.000	4908.000	450.000
556.000	4910.000	350.000
557.000	4912.000	540.000
558.000	4914.000	330.000
559.000	4916.000	520.000
560.000	4918.000	1120.000
561.000	4920.000	360.000
562.000	4922.000	350.000
563.000	4924.000	440.000
564.000	4926.000	730.000
565.000	4928.000	480.000
566.000	4930.000	390.000
567.000	4932.000	420.000
568.000	4934.000	320.000
569.000	4936.000	370.000
570.000	4938.000	650.000
571.000	4940.000	730.000
572.000	4942.000	450.000
573.000	4944.000	750.000
574.000	4946.000	650.000
575.000	4948.000	380.000
576.000	4950.000	300.000
577.000	4952.000	910.000
578.000	4954.000	360.000
579.000	4956.000	400.000
580.000	4958.000	930.000
581.000	4960.000	380.000
582.000	4962.000	320.000
583.000	4964.000	280.000
584.000	4966.000	420.000
585.000	4968.000	340.000
586.000	4970.000	490.000
587.000	4972.000	510.000
588.000	4974.000	420.000
589.000	4976.000	580.000
590.000	4978.000	330.000
591.000	4980.000	420.000
592.000	4982.000	320.000
593.000	4984.000	540.000
594.000	4986.000	450.000
595.000	4988.000	380.000
596.000	4990.000	290.000
597.000	4992.000	480.000
598.000	4994.000	380.000
599.000	4996.000	440.000
600.000	4998.000	300.000
601.000	5000.000	350.000
602.000	5002.000	380.000
603.000	5004.000	500.000
604.000	5006.000	380.000
605.000	5008.000	360.000
606.000	5010.000	390.000
607.000	5012.000	360.000
608.000	5014.000	400.000
609.000	5016.000	360.000
610.000	5018.000	470.000
611.000	5020.000	410.000
612.000	5022.000	520.000
613.000	5024.000	520.000
614.000	5026.000	530.000
615.000	5028.000	360.000
616.000	5030.000	610.000
617.000	5032.000	550.000
618.000	5034.000	430.000
619.000	5036.000	550.000
620.000	5038.000	260.000
621.000	5040.000	360.000
622.000	5042.000	330.000
623.000	5044.000	720.000
624.000	5046.000	420.000
625.000	5048.000	360.000
626.000	5050.000	440.000
627.000	5052.000	370.000
628.000	5054.000	530.000
629.000	5056.000	500.000
630.000	5058.000	250.000
631.000	5060.000	380.000
632.000	5062.000	390.000
633.000	5064.000	590.000
634.000	5066.000	350.000
635.000	5068.000	220.000
636.000	5070.000	330.000
637.000	5072.000	770.000
638.000	5074.000	450.000
639.000	5076.000	350.000
640.000	5078.000	370.000
641.000	5080.000	430.000
642.000	5082.000	220.000
643.000	5084.000	280.000
644.000	5086.000	320.000
645.000	5088.000	470.000
646.000	5090.000	420.000
647.000	5092.000	300.000
648.000	5094.000	500.000
649.000	5096.000	290.000
650.000	5098.000	530.000
651.000	5100.000	560.000
652.000	5102.000	530.000
653.000	5104.000	420.000
654.000	5106.000	600.000
655.000	5108.000	380.000
656.000	5110.000	330.000
657.000	5112.000	400.000
658.000	5114.000	400.000
659.000	5116.000	340.000
660.000	5118.000	460.000
661.000	5120.000	500.000
662.000	5122.000	340.000
663.000	5124.000	210.000
664.000	5126.000	360.000
665.000	5128.000	250.000
666.000	5130.000	220.000
667.000	5132.000	630.000
668.000	5134.000	360.000
669.000	5136.000	450.000
670.000	5138.000	360.000
671.000	5140.000	620.000
672.000	5142.000	530.000
673.000	5144.000	460.000
674.000	5146.000	760.000
675.000	5148.000	1280.000
676.000	5150.000	360.000
677.000	5152.000	370.000
678.000	5154.000	620.000
679.000	5156.000	500.000
680.000	5158.000	340.000
681.000	5160.000	720.000
682.000	5162.000	480.000
683.000	5164.000	330.000
684.000	5166.000	390.000
685.000	5168.000	310.000
686.000	5170.000	370.000
687.000	5172.000	310.000
688.000	5174.000	420.000
689.000	5176.000	400.000
690.000	5178.000	700.000
691.000	5180.000	390.000
692.000	5182.000	290.000
693.000	5184.000	590.000
694.000	5186.000	250.000
695.000	5188.000	290.000
696.000	5190.000	270.000
697.000	5192.000	380.000
698.000	5194.000	420.000
699.000	5196.000	380.000
700.000	5198.000	410.000
701.000	5200.000	270.000
702.000	5202.000	610.000
703.000	5204.000	390.000
704.000	5206.000	390.000
705.000	5208.000	450.000
706.000	5210.000	350.000
707.000	5212.000	910.000
708.000	5214.000	250.000
709.000	5216.000	430.000
710.000	5218.000	370.000
711.000	5220.000	690.000
712.000	5222.000	410.000
713.000	5224.000	480.000
714.000	5226.000	450.000
715.000	5228.000	340.000
716.000	5230.000	490.000
717.000	5232.000	410.000
718.000	5234.000	440.000
719.000	5236.000	280.000
720.000	5238.000	450.000
721.000	5240.000	270.000
722.000	5242.000	370.000
723.000	5244.000	640.000
724.000	5246.000	450.000
725.000	5248.000	530.000
726.000	5250.000	350.000
727.000	5252.000	430.000
728.000	5254.000	450.000
729.000	5256.000	460.000
730.000	5258.000	410.000
731.000	5260.000	360.000
732.000	5262.000	710.000
733.000	5264.000	440.000
734.000	5266.000	550.000
735.000	5268.000	400.000
736.000	5270.000	430.000
737.000	5272.000	420.000
738.000	5274.000	980.000
739.000	5276.000	1000.000
740.000	5278.000	500.000
741.000	5280.000	710.000
742.000	5282.000	480.000
743.000	5284.000	410.000
744.000	5286.000	500.000
745.000	5288.000	540.000
746.000	5290.000	640.000
747.000	5292.000	650.000
748.000	5294.000	620.000
749.000	5296.000	830.000
750.000	5298.000	800.000
751.000	5300.000	880.000
752.000	5302.000	590.000
753.000	5304.000	730.000
754.000	5306.000	650.000
755.000	5308.000	520.000
756.000	5310.000	440.000
757.000	5312.000	490.000
758.000	5314.000	690.000
759.000	5316.000	420.000
760.000	5318.000	650.000
761.000	5320.000	590.000
762.000	5322.000	650.000
763.000	5324.000	370.000
764.000	5326.000	450.000
765.000	5328.000	500.000
766.000	5330.000	770.000
767.000	5332.000	540.000
768.000	5334.000	740.000
769.000	5336.000	600.000
770.000	5338.000	510.000
771.000	5340.000	610.000
772.000	5342.000	670.000
773.000	5344.000	350.000
774.000	5346.000	390.000
775.000	5348.000	640.000
776.000	5350.000	480.000
777.000	5352.000	420.000
778.000	5354.000	380.000
779.000	5356.000	300.000
780.000	5358.000	400.000
781.000	5360.000	500.000
782.000	5362.000	440.000
783.000	5364.000	460.000
784.000	5366.000	440.000
785.000	5368.000	350.000
786.000	5370.000	670.000
787.000	5372.000	410.000
788.000	5374.000	1180.000
789.000	5376.000	430.000
790.000	5378.000	250.000
791.000	5380.000	1230.000
792.000	5382.000	570.000
793.000	5384.000	400.000
794.000	5386.000	380.000
795.000	5388.000	320.000
796.000	5390.000	320.000
797.000	5392.000	490.000
798.000	5394.000	300.000
799.000	5396.000	360.000
800.000	5398.000	300.000
801.000	5400.000	320.000
802.000	5402.000	360.000
803.000	5404.000	400.000
804.000	5406.000	420.000
805.000	5408.000	420.000
806.000	5410.000	390.000
807.000	5412.000	1790.000
808.000	5414.000	350.000
809.000	5416.000	350.000
810.000	5418.000	550.000
811.000	5420.000	350.000
812.000	5422.000	560.000
813.000	5424.000	320.000
814.000	5426.000	410.000
815.000	5428.000	510.000
816.000	5430.000	290.000
817.000	5432.000	260.000
818.000	5434.000	520.000
819.000	5436.000	380.000
820.000	5438.000	360.000
821.000	5440.000	330.000
822.000	5442.000	220.000
823.000	5444.000	270.000
824.000	5446.000	410.000
825.000	5448.000	550.000
826.000	5450.000	270.000
827.000	5452.000	280.000
828.000	5454.000	420.000
829.000	5456.000	280.000
830.000	5458.000	310.000
831.000	5460.000	360.000
832.000	5462.000	450.000
833.000	5464.000	260.000
834.000	5466.000	450.000
835.000	5468.000	270.000
836.000	5470.000	470.000
837.000	5472.000	350.000
838.000	5474.000	450.000
839.000	5476.000	300.000
840.000	5478.000	380.000
841.000	5480.000	310.000
842.000	5482.000	280.000
843.000	5484.000	340.000
844.000	5486.000	440.000
845.000	5488.000	390.000
846.000	5490.000	410.000
847.000	5492.000	240.000
848.000	5494.000	360.000
849.000	5496.000	270.000
850.000	5498.000	470.000
851.000	5500.000	270.000
852.000	5502.000	420.000
853.000	5504.000	500.000
854.000	5506.000	470.000
855.000	5508.000	610.000
856.000	5510.000	320.000
857.000	5512.000	280.000
858.000	5514.000	350.000
859.000	5516.000	480.000
860.000	5518.000	360.000
861.000	5520.000	460.000
862.000	5522.000	280.000
863.000	5524.000	330.000
864.000	5526.000	500.000
865.000	5528.000	320.000
866.000	5530.000	460.000
867.000	5532.000	370.000
868.000	5534.000	260.000
869.000	5536.000	490.000
870.000	5538.000	320.000
871.000	5540.000	350.000
872.000	5542.000	360.000
873.000	5544.000	440.000
874.000	5546.000	380.000
875.000	5548.000	390.000
876.000	5550.000	530.000
877.000	5552.000	270.000
878.000	5554.000	220.000
879.000	5556.000	1150.000
880.000	5558.000	470.000
881.000	5560.000	300.000
882.000	5562.000	360.000
883.000	5564.000	270.000
884.000	5566.000	700.000
885.000	5568.000	290.000
886.000	5570.000	360.000
887.000	5572.000	280.000
888.000	5574.000	1560.000
889.000	5576.000	330.000
890.000	5578.000	230.000
891.000	5580.000	350.000
892.000	5582.000	670.000
893.000	5584.000	280.000
894.000	5586.000	460.000
895.000	5588.000	460.000
896.000	5590.000	310.000
897.000	5592.000	510.000
898.000	5594.000	300.000
899.000	5596.000	300.000
900.000	5598.000	540.000
901.000	5600.000	310.000
902.000	5602.000	3650.000
903.000	5604.000	350.000
904.000	5606.000	350.000
905.000	5608.000	460.000
906.000	5610.000	1820.000
907.000	5612.000	500.000
908.000	5614.000	310.000
909.000	5616.000	380.000
910.000	5618.000	330.000
911.000	5620.000	220.000
912.000	5622.000	510.000
913.000	5624.000	270.000
914.000	5626.000	630.000
915.000	5628.000	320.000
916.000	5630.000	790.000
917.000	5632.000	310.000
918.000	5634.000	260.000
919.000	5636.000	610.000
920.000	5638.000	320.000
921.000	5640.000	1350.000
922.000	5642.000	390.000
923.000	5644.000	360.000
924.000	5646.000	620.000
925.000	5648.000	3540.000
926.000	5650.000	360.000
927.000	5652.000	2210.000
928.000	5654.000	510.000
929.000	5656.000	870.000
930.000	5658.000	760.000
931.000	5660.000	410.000
932.000	5662.000	370.000
933.000	5664.000	560.000
934.000	5666.000	290.000
935.000	5668.000	1040.000
936.000	5670.000	240.000
937.000	5672.000	990.000
938.000	5674.000	890.000
939.000	5676.000	310.000
940.000	5678.000	740.000
941.000	5680.000	260.000
942.000	5682.000	330.000
943.000	5684.000	420.000
944.000	5686.000	440.000
945.000	5688.000	2680.000
946.000	5690.000	1020.000
947.000	5692.000	2300.000
948.000	5694.000	430.000
949.000	5696.000	480.000
950.000	5698.000	330.000
951.000	5700.000	260.000
952.000	5702.000	400.000
953.000	5704.000	890.000
954.000	5706.000	560.000
955.000	5708.000	350.000
956.000	5710.000	790.000
957.000	5712.000	420.000
958.000	5714.000	620.000
959.000	5716.000	490.000
960.000	5718.000	300.000
961.000	5720.000	980.000
962.000	5722.000	1870.000
963.000	5724.000	660.000
964.000	5726.000	320.000
965.000	5728.000	330.000
966.000	5730.000	940.000
967.000	5732.000	420.000
968.000	5734.000	1010.000
969.000	5736.000	270.000
970.000	5738.000	370.000
971.000	5740.000	370.000
972.000	5742.000	1600.000
973.000	5744.000	630.000
974.000	5746.000	360.000
975.000	5748.000	340.000
976.000	5750.000	270.000
977.000	5752.000	1040.000
978.000	5754.000	420.000
979.000	5756.000	740.000
980.000	5758.000	820.000
981.000	5760.000	650.000
982.000	5762.000	4530.000
983.000	5764.000	690.000
984.000	5766.000	790.000
985.000	5768.000	4250.000
986.000	5770.000	570.000
987.000	5772.000	320.000
988.000	5774.000	330.000
989.000	5776.000	840.000
990.000	5778.000	420.000
991.000	5780.000	260.000
992.000	5782.000	520.000
993.000	5784.000	970.000
994.000	5786.000	280.000
995.000	5788.000	940.000
996.000	5790.000	740.000
997.000	5792.000	540.000
998.000	5794.000	230.000
999.000	5796.000	440.000
1000.000	5798.000	900.000
1001.000	5800.000	430.000
1002.000	5802.000	550.000
1003.000	5804.000	2080.000
1004.000	5806.000	500.000
1005.000	5808.000	490.000
1006.000	5810.000	530.000
1007.000	5812.000	550.000
1008.000	5814.000	690.000
1009.000	5816.000	760.000
1010.000	5818.000	420.000
1011.000	5820.000	600.000
1012.000	5822.000	3750.000
1013.000	5824.000	250.000
1014.000	5826.000	260.000
1015.000	5828.000	510.000
1016.000	5830.000	360.000
1017.000	5832.000	1910.000
1018.000	5834.000	280.000
1019.000	5836.000	290.000
1020.000	5838.000	310.000
1021.000	5840.000	280.000
1022.000	5842.000	1560.000
1023.000	5844.000	350.000
1024.000	5846.000	970.000
1025.000	5848.000	270.000
1026.000	5850.000	490.000
1027.000	5852.000	250.000
1028.000	5854.000	460.000
1029.000	5856.000	260.000
1030.000	5858.000	340.000
1031.000	5860.000	280.000
1032.000	5862.000	410.000
1033.000	5864.000	950.000
1034.000	5866.000	2330.000
1035.000	5868.000	320.000
1036.000	5870.000	680.000
1037.000	5872.000	310.000
1038.000	5874.000	380.000
1039.000	5876.000	310.000
1040.000	5878.000	400.000
1041.000	5880.000	270.000
1042.000	5882.000	330.000
1043.000	5884.000	610.000
1044.000	5886.000	220.000
1045.000	5888.000	310.000
1046.000	5890.000	9230.000
1047.000	5892.000	360.000
1048.000	5894.000	320.000
1049.000	5896.000	350.000
1050.000	5898.000	350.000
1051.000	5900.000	720.000
1052.000	5902.000	450.000
1053.000	5904.000	1030.000
1054.000	5906.000	430.000
1055.000	5908.000	400.000
1056.000	5910.000	220.000
1057.000	5912.000	320.000
1058.000	5914.000	720.000
1059.000	5916.000	530.000
1060.000	5918.000	340.000
1061.000	5920.000	250.000
1062.000	5922.000	330.000
1063.000	5924.000	1350.000
1064.000	5926.000	340.000
1065.000	5928.000	990.000
1066.000	5930.000	620.000
1067.000	5932.000	250.000
1068.000	5934.000	380.000
1069.000	5936.000	310.000
1070.000	5938.000	770.000
1071.000	5940.000	550.000
1072.000	5942.000	430.000
1073.000	5944.000	360.000
1074.000	5946.000	1390.000
1075.000	5948.000	300.000
1076.000	5950.000	280.000
1077.000	5952.000	2480.000
1078.000	5954.000	260.000
1079.000	5956.000	570.000
1080.000	5958.000	500.000
1081.000	5960.000	310.000
1082.000	5962.000	1780.000
1083.000	5964.000	260.000
1084.000	5966.000	200.000
1085.000	5968.000	310.000
1086.000	5970.000	330.000
1087.000	5972.000	360.000
1088.000	5974.000	340.000
1089.000	5976.000	350.000
1090.000	5978.000	460.000
1091.000	5980.000	560.000
1092.000	5982.000	850.000
1093.000	5984.000	1050.000
1094.000	5986.000	770.000
1095.000	5988.000	720.000
1096.000	5990.000	1000.000
1097.000	5992.000	490.000
1098.000	5994.000	400.000
1099.000	5996.000	320.000
1100.000	5998.000	430.000
1101.000	6000.000	300.000
1102.000	6002.000	430.000
1103.000	6004.000	340.000
1104.000	6006.000	520.000
1105.000	6008.000	450.000
1106.000	6010.000	440.000
1107.000	6012.000	460.000
1108.000	6014.000	410.000
1109.000	6016.000	450.000
1110.000	6018.000	770.000
1111.000	6020.000	360.000
1112.000	6022.000	390.000
1113.000	6024.000	460.000
1114.000	6026.000	320.000
1115.000	6028.000	280.000
1116.000	6030.000	390.000
1117.000	6032.000	410.000
1118.000	6034.000	320.000
1119.000	6036.000	490.000
1120.000	6038.000	390.000
1121.000	6040.000	350.000
1122.000	6042.000	320.000
1123.000	6044.000	270.000
1124.000	6046.000	780.000
1125.000	6048.000	270.000
1126.000	6050.000	390.000
1127.000	6052.000	330.000
1128.000	6054.000	2910.000
1129.000	6056.000	390.000
1130.000	6058.000	410.000
1131.000	6060.000	280.000
1132.000	6062.000	250.000
1133.000	6064.000	330.000
1134.000	6066.000	220.000
1135.000	6068.000	1400.000
1136.000	6070.000	1570.000
1137.000	6072.000	1300.000
1138.000	6074.000	360.000
1139.000	6076.000	340.000
1140.000	6078.000	300.000
1141.000	6080.000	290.000
1142.000	6082.000	260.000
1143.000	6084.000	420.000
1144.000	6086.000	240.000
1145.000	6088.000	210.000
1146.000	6090.000	450.000
1147.000	6092.000	420.000
1148.000	6094.000	360.000
1149.000	6096.000	430.000
1150.000	6098.000	320.000
1151.000	6100.000	360.000
1152.000	6102.000	340.000
1153.000	6104.000	380.000
1154.000	6106.000	440.000
1155.000	6108.000	820.000
1156.000	6110.000	300.000
1157.000	6112.000	460.000
1158.000	6114.000	410.000
1159.000	6116.000	310.000
1160.000	6118.000	250.000
1161.000	6120.000	380.000
1162.000	6122.000	290.000
1163.000	6124.000	250.000
1164.000	6126.000	350.000
1165.000	6128.000	380.000
1166.000	6130.000	230.000
1167.000	6132.000	290.000
1168.000	6134.000	290.000
1169.000	6136.000	270.000
1170.000	6138.000	270.000
1171.000	6140.000	430.000
1172.000	6142.000	1060.000
1173.000	6144.000	280.000
1174.000	6146.000	290.000
1175.000	6148.000	390.000
1176.000	6150.000	400.000
1177.000	6152.000	400.000
1178.000	6154.000	360.000
1179.000	6156.000	620.000
1180.000	6158.000	220.000
1181.000	6160.000	650.000
1182.000	6162.000	380.000
1183.000	6164.000	260.000
1184.000	6166.000	300.000
1185.000	6168.000	350.000
1186.000	6170.000	340.000
1187.000	6172.000	420.000
1188.000	6174.000	340.000
1189.000	6176.000	230.000
1190.000	6178.000	310.000
1191.000	6180.000	360.000
1192.000	6182.000	320.000
1193.000	6184.000	190.000
1194.000	6186.000	400.000
1195.000	6188.000	300.000
1196.000	6190.000	410.000
1197.000	6192.000	190.000
1198.000	6194.000	370.000
1199.000	6196.000	260.000
1200.000	6198.000	330.000
1201.000	6200.000	1650.000
1202.000	6202.000	300.000
1203.000	6204.000	340.000
1204.000	6206.000	370.000
1205.000	6208.000	200.000
1206.000	6210.000	430.000
1207.000	6212.000	230.000
1208.000	6214.000	400.000
1209.000	6216.000	410.000
1210.000	6218.000	320.000
1211.000	6220.000	450.000
1212.000	6222.000	370.000
1213.000	6224.000	270.000
1214.000	6226.000	240.000
1215.000	6228.000	350.000
1216.000	6230.000	410.000
1217.000	6232.000	600.000
1218.000	6234.000	360.000
1219.000	6236.000	390.000
1220.000	6238.000	410.000
1221.000	6240.000	630.000
1222.000	6242.000	580.000
1223.000	6244.000	460.000
1224.000	6246.000	360.000
1225.000	6248.000	430.000
1226.000	6250.000	720.000
1227.000	6252.000	350.000
1228.000	6254.000	300.000
1229.000	6256.000	370.000
1230.000	6258.000	480.000
1231.000	6260.000	340.000
1232.000	6262.000	290.000
1233.000	6264.000	270.000
1234.000	6266.000	380.000
1235.000	6268.000	310.000
1236.000	6270.000	420.000
1237.000	6272.000	210.000
1238.000	6274.000	380.000
1239.000	6276.000	270.000
1240.000	6278.000	290.000
1241.000	6280.000	340.000
1242.000	6282.000	390.000
1243.000	6284.000	370.000
1244.000	6286.000	310.000
1245.000	6288.000	380.000
1246.000	6290.000	330.000
1247.000	6292.000	260.000
1248.000	6294.000	240.000
1249.000	6296.000	350.000
1250.000	6298.000	380.000
1251.000	6300.000	200.000
1252.000	6302.000	340.000
1253.000	6304.000	530.000
1254.000	6306.000	440.000
1255.000	6308.000	340.000
1256.000	6310.000	480.000
1257.000	6312.000	200.000
1258.000	6314.000	260.000
1259.000	6316.000	440.000
1260.000	6318.000	260.000
1261.000	6320.000	490.000
1262.000	6322.000	330.000
1263.000	6324.000	240.000
1264.000	6326.000	180.000
1265.000	6328.000	360.000
1266.000	6330.000	210.000
1267.000	6332.000	420.000
1268.000	6334.000	350.000
1269.000	6336.000	340.000
1270.000	6338.000	280.000
1271.000	6340.000	300.000
1272.000	6342.000	260.000
1273.000	6344.000	270.000
1274.000	6346.000	290.000
1275.000	6348.000	310.000
1276.000	6350.000	250.000
1277.000	6352.000	350.000
1278.000	6354.000	380.000
1279.000	6356.000	370.000
1280.000	6358.000	340.000
1281.000	6360.000	280.000
1282.000	6362.000	420.000
1283.000	6364.000	460.000
1284.000	6366.000	300.000
1285.000	6368.000	310.000
1286.000	6370.000	290.000
1287.000	6372.000	300.000
1288.000	6374.000	280.000
1289.000	6376.000	350.000
1290.000	6378.000	370.000
1291.000	6380.000	450.000
1292.000	6382.000	230.000
1293.000	6384.000	260.000
1294.000	6386.000	410.000
1295.000	6388.000	300.000
1296.000	6390.000	300.000
1297.000	6392.000	370.000
1298.000	6394.000	380.000
1299.000	6396.000	620.000
1300.000	6398.000	290.000
1301.000	6400.000	430.000
1302.000	6402.000	460.000
1303.000	6404.000	390.000
1304.000	6406.000	350.000
1305.000	6408.000	300.000
1306.000	6410.000	350.000
1307.000	6412.000	450.000
1308.000	6414.000	530.000
1309.000	6416.000	430.000
1310.000	6418.000	330.000
1311.000	6420.000	650.000
1312.000	6422.000	760.000
1313.000	6424.000	690.000
1314.000	6426.000	1350.000
1315.000	6428.000	1910.000
1316.000	6430.000	9740.000
1317.000	6432.000	172670.000
1318.000	6434.000	2270.000
1319.000	6436.000	3800.000
1320.000	6438.000	2540.000
1321.000	6440.000	1800.000
1322.000	6442.000	1020.000
1323.000	6444.000	580.000
1324.000	6446.000	560.000
1325.000	6448.000	540.000
1326.000	6450.000	410.000
1327.000	6452.000	630.000
1328.000	6454.000	450.000
1329.000	6456.000	460.000
1330.000	6458.000	310.000
1331.000	6460.000	370.000
1332.000	6462.000	410.000
1333.000	6464.000	450.000
1334.000	6466.000	270.000
1335.000	6468.000	430.000
1336.000	6470.000	380.000
1337.000	6472.000	390.000
1338.000	6474.000	460.000
1339.000	6476.000	440.000
1340.000	6478.000	330.000
1341.000	6480.000	370.000
1342.000	6482.000	330.000
1343.000	6484.000	430.000
1344.000	6486.000	420.000
1345.000	6488.000	450.000
1346.000	6490.000	370.000
1347.000	6492.000	460.000
1348.000	6494.000	360.000
1349.000	6496.000	320.000
1350.000	6498.000	530.000
1351.000	6500.000	420.000
