step    Monochromator-step  cps
1.000	5000.000	240.000
2.000	5001.000	220.000
3.000	5002.000	400.000
4.000	5003.000	320.000
5.000	5004.000	390.000
6.000	5005.000	420.000
7.000	5006.000	280.000
8.000	5007.000	440.000
9.000	5008.000	330.000
10.000	5009.000	300.000
11.000	5010.000	370.000
12.000	5011.000	390.000
13.000	5012.000	320.000
14.000	5013.000	360.000
15.000	5014.000	430.000
16.000	5015.000	350.000
17.000	5016.000	230.000
18.000	5017.000	310.000
19.000	5018.000	370.000
20.000	5019.000	360.000
21.000	5020.000	430.000
22.000	5021.000	7320.000
23.000	5022.000	370.000
24.000	5023.000	380.000
25.000	5024.000	430.000
26.000	5025.000	240.000
27.000	5026.000	660.000
28.000	5027.000	440.000
29.000	5028.000	5000.000
30.000	5029.000	350.000
31.000	5030.000	680.000
32.000	5031.000	330.000
33.000	5032.000	320.000
34.000	5033.000	430.000
35.000	5034.000	360.000
36.000	5035.000	1520.000
37.000	5036.000	280.000
38.000	5037.000	350.000
39.000	5038.000	480.000
40.000	5039.000	440.000
41.000	5040.000	210.000
42.000	5041.000	270.000
43.000	5042.000	280.000
44.000	5043.000	290.000
45.000	5044.000	240.000
46.000	5045.000	310.000
47.000	5046.000	310.000
48.000	5047.000	360.000
49.000	5048.000	370.000
50.000	5049.000	370.000
51.000	5050.000	330.000
52.000	5051.000	360.000
53.000	5052.000	360.000
54.000	5053.000	390.000
55.000	5054.000	370.000
56.000	5055.000	260.000
57.000	5056.000	330.000
58.000	5057.000	390.000
59.000	5058.000	230.000
60.000	5059.000	310.000
61.000	5060.000	410.000
62.000	5061.000	290.000
63.000	5062.000	320.000
64.000	5063.000	250.000
65.000	5064.000	450.000
66.000	5065.000	1050.000
67.000	5066.000	280.000
68.000	5067.000	590.000
69.000	5068.000	280.000
70.000	5069.000	2950.000
71.000	5070.000	310.000
72.000	5071.000	320.000
73.000	5072.000	370.000
74.000	5073.000	300.000
75.000	5074.000	280.000
76.000	5075.000	370.000
77.000	5076.000	320.000
78.000	5077.000	330.000
79.000	5078.000	290.000
80.000	5079.000	310.000
81.000	5080.000	8680.000
82.000	5081.000	260.000
83.000	5082.000	330.000
84.000	5083.000	380.000
85.000	5084.000	400.000
86.000	5085.000	2910.000
87.000	5086.000	560.000
88.000	5087.000	380.000
89.000	5088.000	220.000
90.000	5089.000	330.000
91.000	5090.000	880.000
92.000	5091.000	250.000
93.000	5092.000	370.000
94.000	5093.000	360.000
95.000	5094.000	460.000
96.000	5095.000	480.000
97.000	5096.000	300.000
98.000	5097.000	250.000
99.000	5098.000	3560.000
100.000	5099.000	270.000
101.000	5100.000	200.000
102.000	5101.000	320.000
103.000	5102.000	360.000
104.000	5103.000	200.000
105.000	5104.000	330.000
106.000	5105.000	300.000
107.000	5106.000	220.000
108.000	5107.000	260.000
109.000	5108.000	350.000
110.000	5109.000	280.000
111.000	5110.000	530.000
112.000	5111.000	320.000
113.000	5112.000	290.000
114.000	5113.000	280.000
115.000	5114.000	280.000
116.000	5115.000	380.000
117.000	5116.000	230.000
118.000	5117.000	380.000
119.000	5118.000	270.000
120.000	5119.000	240.000
121.000	5120.000	270.000
122.000	5121.000	270.000
123.000	5122.000	270.000
124.000	5123.000	230.000
125.000	5124.000	340.000
126.000	5125.000	250.000
127.000	5126.000	280.000
128.000	5127.000	310.000
129.000	5128.000	290.000
130.000	5129.000	390.000
131.000	5130.000	250.000
132.000	5131.000	320.000
133.000	5132.000	270.000
134.000	5133.000	310.000
135.000	5134.000	240.000
136.000	5135.000	340.000
137.000	5136.000	370.000
138.000	5137.000	340.000
139.000	5138.000	300.000
140.000	5139.000	180.000
141.000	5140.000	330.000
142.000	5141.000	350.000
143.000	5142.000	190.000
144.000	5143.000	330.000
145.000	5144.000	260.000
146.000	5145.000	300.000
147.000	5146.000	300.000
148.000	5147.000	360.000
149.000	5148.000	280.000
150.000	5149.000	290.000
151.000	5150.000	400.000
152.000	5151.000	310.000
153.000	5152.000	260.000
154.000	5153.000	410.000
155.000	5154.000	330.000
156.000	5155.000	260.000
157.000	5156.000	410.000
158.000	5157.000	340.000
159.000	5158.000	350.000
160.000	5159.000	290.000
161.000	5160.000	290.000
162.000	5161.000	260.000
163.000	5162.000	260.000
164.000	5163.000	260.000
165.000	5164.000	240.000
166.000	5165.000	350.000
167.000	5166.000	260.000
168.000	5167.000	330.000
169.000	5168.000	340.000
170.000	5169.000	200.000
171.000	5170.000	280.000
172.000	5171.000	460.000
173.000	5172.000	330.000
174.000	5173.000	410.000
175.000	5174.000	370.000
176.000	5175.000	320.000
177.000	5176.000	150.000
178.000	5177.000	340.000
179.000	5178.000	350.000
180.000	5179.000	360.000
181.000	5180.000	1650.000
182.000	5181.000	330.000
183.000	5182.000	340.000
184.000	5183.000	330.000
185.000	5184.000	280.000
186.000	5185.000	300.000
187.000	5186.000	310.000
188.000	5187.000	350.000
189.000	5188.000	220.000
190.000	5189.000	300.000
191.000	5190.000	510.000
192.000	5191.000	310.000
193.000	5192.000	300.000
194.000	5193.000	310.000
195.000	5194.000	240.000
196.000	5195.000	280.000
197.000	5196.000	280.000
198.000	5197.000	360.000
199.000	5198.000	260.000
200.000	5199.000	310.000
201.000	5200.000	460.000
202.000	5201.000	350.000
203.000	5202.000	3390.000
204.000	5203.000	440.000
205.000	5204.000	410.000
206.000	5205.000	640.000
207.000	5206.000	45920.000
208.000	5207.000	380.000
209.000	5208.000	330.000
210.000	5209.000	460.000
211.000	5210.000	640.000
212.000	5211.000	670.000
213.000	5212.000	530.000
214.000	5213.000	400.000
215.000	5214.000	420.000
216.000	5215.000	550.000
217.000	5216.000	13970.000
218.000	5217.000	790.000
219.000	5218.000	1610.000
220.000	5219.000	990.000
221.000	5220.000	580.000
222.000	5221.000	440.000
223.000	5222.000	540.000
224.000	5223.000	460.000
225.000	5224.000	610.000
226.000	5225.000	440.000
227.000	5226.000	330.000
228.000	5227.000	280.000
229.000	5228.000	340.000
230.000	5229.000	320.000
231.000	5230.000	720.000
232.000	5231.000	200.000
233.000	5232.000	330.000
234.000	5233.000	350.000
235.000	5234.000	380.000
236.000	5235.000	1760.000
237.000	5236.000	320.000
238.000	5237.000	450.000
239.000	5238.000	410.000
240.000	5239.000	180.000
241.000	5240.000	360.000
242.000	5241.000	350.000
243.000	5242.000	440.000
244.000	5243.000	280.000
245.000	5244.000	290.000
246.000	5245.000	330.000
247.000	5246.000	390.000
248.000	5247.000	660.000
249.000	5248.000	330.000
250.000	5249.000	330.000
251.000	5250.000	1010.000
252.000	5251.000	260.000
253.000	5252.000	280.000
254.000	5253.000	330.000
255.000	5254.000	280.000
256.000	5255.000	350.000
257.000	5256.000	300.000
258.000	5257.000	350.000
259.000	5258.000	370.000
260.000	5259.000	340.000
261.000	5260.000	330.000
262.000	5261.000	400.000
263.000	5262.000	300.000
264.000	5263.000	440.000
265.000	5264.000	450.000
266.000	5265.000	320.000
267.000	5266.000	460.000
268.000	5267.000	400.000
269.000	5268.000	410.000
270.000	5269.000	570.000
271.000	5270.000	400.000
272.000	5271.000	380.000
273.000	5272.000	540.000
274.000	5273.000	600.000
275.000	5274.000	560.000
276.000	5275.000	5130.000
277.000	5276.000	10410.000
278.000	5277.000	590.000
279.000	5278.000	470.000
280.000	5279.000	980.000
281.000	5280.000	790.000
282.000	5281.000	670.000
283.000	5282.000	630.000
284.000	5283.000	690.000
285.000	5284.000	450.000
286.000	5285.000	600.000
287.000	5286.000	600.000
288.000	5287.000	750.000
289.000	5288.000	660.000
290.000	5289.000	710.000
291.000	5290.000	610.000
292.000	5291.000	610.000
293.000	5292.000	530.000
294.000	5293.000	620.000
295.000	5294.000	580.000
296.000	5295.000	890.000
297.000	5296.000	560.000
298.000	5297.000	550.000
299.000	5298.000	540.000
300.000	5299.000	460.000
301.000	5300.000	640.000
302.000	5301.000	460.000
303.000	5302.000	620.000
304.000	5303.000	590.000
305.000	5304.000	410.000
306.000	5305.000	530.000
307.000	5306.000	420.000
308.000	5307.000	600.000
309.000	5308.000	1380.000
310.000	5309.000	490.000
311.000	5310.000	360.000
312.000	5311.000	380.000
313.000	5312.000	470.000
314.000	5313.000	540.000
315.000	5314.000	500.000
316.000	5315.000	400.000
317.000	5316.000	410.000
318.000	5317.000	500.000
319.000	5318.000	540.000
320.000	5319.000	350.000
321.000	5320.000	410.000
322.000	5321.000	400.000
323.000	5322.000	470.000
324.000	5323.000	950.000
325.000	5324.000	440.000
326.000	5325.000	560.000
327.000	5326.000	490.000
328.000	5327.000	380.000
329.000	5328.000	560.000
330.000	5329.000	440.000
331.000	5330.000	560.000
332.000	5331.000	430.000
333.000	5332.000	590.000
334.000	5333.000	490.000
335.000	5334.000	570.000
336.000	5335.000	950.000
337.000	5336.000	550.000
338.000	5337.000	570.000
339.000	5338.000	390.000
340.000	5339.000	330.000
341.000	5340.000	280.000
342.000	5341.000	520.000
343.000	5342.000	510.000
344.000	5343.000	420.000
345.000	5344.000	400.000
346.000	5345.000	520.000
347.000	5346.000	510.000
348.000	5347.000	490.000
349.000	5348.000	480.000
350.000	5349.000	520.000
351.000	5350.000	420.000
352.000	5351.000	510.000
353.000	5352.000	520.000
354.000	5353.000	380.000
355.000	5354.000	510.000
356.000	5355.000	350.000
357.000	5356.000	500.000
358.000	5357.000	280.000
359.000	5358.000	260.000
360.000	5359.000	410.000
361.000	5360.000	380.000
362.000	5361.000	380.000
363.000	5362.000	330.000
364.000	5363.000	440.000
365.000	5364.000	360.000
366.000	5365.000	430.000
367.000	5366.000	480.000
368.000	5367.000	390.000
369.000	5368.000	380.000
370.000	5369.000	880.000
371.000	5370.000	440.000
372.000	5371.000	400.000
373.000	5372.000	450.000
374.000	5373.000	320.000
375.000	5374.000	450.000
376.000	5375.000	460.000
377.000	5376.000	460.000
378.000	5377.000	440.000
379.000	5378.000	440.000
380.000	5379.000	420.000
381.000	5380.000	380.000
382.000	5381.000	280.000
383.000	5382.000	460.000
384.000	5383.000	450.000
385.000	5384.000	410.000
386.000	5385.000	360.000
387.000	5386.000	370.000
388.000	5387.000	260.000
389.000	5388.000	300.000
390.000	5389.000	370.000
391.000	5390.000	400.000
392.000	5391.000	510.000
393.000	5392.000	360.000
394.000	5393.000	290.000
395.000	5394.000	350.000
396.000	5395.000	480.000
397.000	5396.000	530.000
398.000	5397.000	400.000
399.000	5398.000	410.000
400.000	5399.000	350.000
401.000	5400.000	470.000
402.000	5401.000	310.000
403.000	5402.000	440.000
404.000	5403.000	320.000
405.000	5404.000	260.000
406.000	5405.000	310.000
407.000	5406.000	280.000
408.000	5407.000	310.000
409.000	5408.000	640.000
410.000	5409.000	310.000
411.000	5410.000	440.000
412.000	5411.000	320.000
413.000	5412.000	260.000
414.000	5413.000	600.000
415.000	5414.000	280.000
416.000	5415.000	530.000
417.000	5416.000	320.000
418.000	5417.000	460.000
419.000	5418.000	230.000
420.000	5419.000	320.000
421.000	5420.000	380.000
422.000	5421.000	320.000
423.000	5422.000	380.000
424.000	5423.000	340.000
425.000	5424.000	300.000
426.000	5425.000	260.000
427.000	5426.000	230.000
428.000	5427.000	270.000
429.000	5428.000	330.000
430.000	5429.000	360.000
431.000	5430.000	410.000
432.000	5431.000	340.000
433.000	5432.000	280.000
434.000	5433.000	400.000
435.000	5434.000	340.000
436.000	5435.000	300.000
437.000	5436.000	480.000
438.000	5437.000	9320.000
439.000	5438.000	280.000
440.000	5439.000	330.000
441.000	5440.000	340.000
442.000	5441.000	280.000
443.000	5442.000	380.000
444.000	5443.000	400.000
445.000	5444.000	440.000
446.000	5445.000	350.000
447.000	5446.000	350.000
448.000	5447.000	290.000
449.000	5448.000	460.000
450.000	5449.000	240.000
451.000	5450.000	290.000
452.000	5451.000	350.000
453.000	5452.000	280.000
454.000	5453.000	320.000
455.000	5454.000	290.000
456.000	5455.000	340.000
457.000	5456.000	250.000
458.000	5457.000	330.000
459.000	5458.000	360.000
460.000	5459.000	300.000
461.000	5460.000	290.000
462.000	5461.000	300.000
463.000	5462.000	370.000
464.000	5463.000	370.000
465.000	5464.000	290.000
466.000	5465.000	280.000
467.000	5466.000	360.000
468.000	5467.000	390.000
469.000	5468.000	220.000
470.000	5469.000	250.000
471.000	5470.000	250.000
472.000	5471.000	400.000
473.000	5472.000	270.000
474.000	5473.000	240.000
475.000	5474.000	210.000
476.000	5475.000	230.000
477.000	5476.000	250.000
478.000	5477.000	330.000
479.000	5478.000	370.000
480.000	5479.000	290.000
481.000	5480.000	340.000
482.000	5481.000	270.000
483.000	5482.000	360.000
484.000	5483.000	450.000
485.000	5484.000	340.000
486.000	5485.000	330.000
487.000	5486.000	370.000
488.000	5487.000	240.000
489.000	5488.000	260.000
490.000	5489.000	320.000
491.000	5490.000	190.000
492.000	5491.000	310.000
493.000	5492.000	200.000
494.000	5493.000	220.000
495.000	5494.000	280.000
496.000	5495.000	240.000
497.000	5496.000	300.000
498.000	5497.000	240.000
499.000	5498.000	360.000
500.000	5499.000	260.000
501.000	5500.000	440.000
502.000	5501.000	360.000
503.000	5502.000	270.000
504.000	5503.000	240.000
505.000	5504.000	240.000
506.000	5505.000	280.000
507.000	5506.000	590.000
508.000	5507.000	320.000
509.000	5508.000	360.000
510.000	5509.000	210.000
511.000	5510.000	350.000
512.000	5511.000	310.000
513.000	5512.000	350.000
514.000	5513.000	350.000
515.000	5514.000	270.000
516.000	5515.000	280.000
517.000	5516.000	230.000
518.000	5517.000	270.000
519.000	5518.000	370.000
520.000	5519.000	350.000
521.000	5520.000	280.000
522.000	5521.000	290.000
523.000	5522.000	330.000
524.000	5523.000	390.000
525.000	5524.000	270.000
526.000	5525.000	290.000
527.000	5526.000	710.000
528.000	5527.000	420.000
529.000	5528.000	280.000
530.000	5529.000	280.000
531.000	5530.000	3790.000
532.000	5531.000	580.000
533.000	5532.000	320.000
534.000	5533.000	270.000
535.000	5534.000	350.000
536.000	5535.000	380.000
537.000	5536.000	1160.000
538.000	5537.000	340.000
539.000	5538.000	390.000
540.000	5539.000	270.000
541.000	5540.000	240.000
542.000	5541.000	340.000
543.000	5542.000	330.000
544.000	5543.000	240.000
545.000	5544.000	290.000
546.000	5545.000	310.000
547.000	5546.000	280.000
548.000	5547.000	270.000
549.000	5548.000	410.000
550.000	5549.000	360.000
551.000	5550.000	350.000
552.000	5551.000	270.000
553.000	5552.000	360.000
554.000	5553.000	410.000
555.000	5554.000	270.000
556.000	5555.000	250.000
557.000	5556.000	310.000
558.000	5557.000	290.000
559.000	5558.000	290.000
560.000	5559.000	170.000
561.000	5560.000	290.000
562.000	5561.000	410.000
563.000	5562.000	280.000
564.000	5563.000	5020.000
565.000	5564.000	420.000
566.000	5565.000	280.000
567.000	5566.000	490.000
568.000	5567.000	300.000
569.000	5568.000	400.000
570.000	5569.000	280.000
571.000	5570.000	400.000
572.000	5571.000	280.000
573.000	5572.000	260.000
574.000	5573.000	260.000
575.000	5574.000	330.000
576.000	5575.000	400.000
577.000	5576.000	300.000
578.000	5577.000	280.000
579.000	5578.000	270.000
580.000	5579.000	340.000
581.000	5580.000	290.000
582.000	5581.000	280.000
583.000	5582.000	330.000
584.000	5583.000	350.000
585.000	5584.000	260.000
586.000	5585.000	330.000
587.000	5586.000	270.000
588.000	5587.000	440.000
589.000	5588.000	280.000
590.000	5589.000	580.000
591.000	5590.000	300.000
592.000	5591.000	200.000
593.000	5592.000	540.000
594.000	5593.000	7010.000
595.000	5594.000	300.000
596.000	5595.000	300.000
597.000	5596.000	360.000
598.000	5597.000	350.000
599.000	5598.000	300.000
600.000	5599.000	310.000
601.000	5600.000	260.000
602.000	5601.000	360.000
603.000	5602.000	310.000
604.000	5603.000	300.000
605.000	5604.000	230.000
606.000	5605.000	340.000
607.000	5606.000	270.000
608.000	5607.000	300.000
609.000	5608.000	370.000
610.000	5609.000	300.000
611.000	5610.000	550.000
612.000	5611.000	310.000
613.000	5612.000	370.000
614.000	5613.000	400.000
615.000	5614.000	400.000
616.000	5615.000	320.000
617.000	5616.000	340.000
618.000	5617.000	400.000
619.000	5618.000	220.000
620.000	5619.000	420.000
621.000	5620.000	400.000
622.000	5621.000	1300.000
623.000	5622.000	3600.000
624.000	5623.000	380.000
625.000	5624.000	270.000
626.000	5625.000	570.000
627.000	5626.000	430.000
628.000	5627.000	480.000
629.000	5628.000	410.000
630.000	5629.000	400.000
631.000	5630.000	380.000
632.000	5631.000	300.000
633.000	5632.000	450.000
634.000	5633.000	510.000
635.000	5634.000	2290.000
636.000	5635.000	510.000
637.000	5636.000	840.000
638.000	5637.000	16320.000
639.000	5638.000	2620.000
640.000	5639.000	390.000
641.000	5640.000	450.000
642.000	5641.000	930.000
643.000	5642.000	800.000
644.000	5643.000	710.000
645.000	5644.000	790.000
646.000	5645.000	600.000
647.000	5646.000	440.000
648.000	5647.000	390.000
649.000	5648.000	440.000
650.000	5649.000	380.000
651.000	5650.000	370.000
652.000	5651.000	360.000
653.000	5652.000	360.000
654.000	5653.000	330.000
655.000	5654.000	510.000
656.000	5655.000	300.000
657.000	5656.000	240.000
658.000	5657.000	460.000
659.000	5658.000	270.000
660.000	5659.000	350.000
661.000	5660.000	460.000
662.000	5661.000	400.000
663.000	5662.000	470.000
664.000	5663.000	360.000
665.000	5664.000	930.000
666.000	5665.000	280.000
667.000	5666.000	340.000
668.000	5667.000	440.000
669.000	5668.000	390.000
670.000	5669.000	390.000
671.000	5670.000	360.000
672.000	5671.000	370.000
673.000	5672.000	390.000
674.000	5673.000	540.000
675.000	5674.000	500.000
676.000	5675.000	470.000
677.000	5676.000	590.000
678.000	5677.000	2290.000
679.000	5678.000	1340.000
680.000	5679.000	330.000
681.000	5680.000	300.000
682.000	5681.000	480.000
683.000	5682.000	460.000
684.000	5683.000	400.000
685.000	5684.000	840.000
686.000	5685.000	630.000
687.000	5686.000	360.000
688.000	5687.000	430.000
689.000	5688.000	490.000
690.000	5689.000	570.000
691.000	5690.000	590.000
692.000	5691.000	590.000
693.000	5692.000	890.000
694.000	5693.000	103490.000
695.000	5694.000	670.000
696.000	5695.000	400.000
697.000	5696.000	660.000
698.000	5697.000	790.000
699.000	5698.000	860.000
700.000	5699.000	660.000
701.000	5700.000	800.000
702.000	5701.000	620.000
703.000	5702.000	820.000
704.000	5703.000	630.000
705.000	5704.000	460.000
706.000	5705.000	600.000
707.000	5706.000	600.000
708.000	5707.000	630.000
709.000	5708.000	530.000
710.000	5709.000	770.000
711.000	5710.000	560.000
712.000	5711.000	700.000
713.000	5712.000	760.000
714.000	5713.000	780.000
715.000	5714.000	800.000
716.000	5715.000	1110.000
717.000	5716.000	1050.000
718.000	5717.000	1370.000
719.000	5718.000	1360.000
720.000	5719.000	1760.000
721.000	5720.000	2390.000
722.000	5721.000	3060.000
723.000	5722.000	4600.000
724.000	5723.000	9340.000
725.000	5724.000	26420.000
726.000	5725.000	2154610.000
727.000	5726.000	56270.000
728.000	5727.000	7900.000
729.000	5728.000	6060.000
730.000	5729.000	35880.000
731.000	5730.000	19970.000
732.000	5731.000	15780.000
733.000	5732.000	13080.000
734.000	5733.000	10960.000
735.000	5734.000	9870.000
736.000	5735.000	9360.000
737.000	5736.000	9010.000
738.000	5737.000	1500.000
739.000	5738.000	1150.000
740.000	5739.000	920.000
741.000	5740.000	850.000
742.000	5741.000	2340.000
743.000	5742.000	980.000
744.000	5743.000	1040.000
745.000	5744.000	1030.000
746.000	5745.000	5830.000
747.000	5746.000	1540.000
748.000	5747.000	1150.000
749.000	5748.000	1300.000
750.000	5749.000	1740.000
751.000	5750.000	1620.000
752.000	5751.000	2400.000
753.000	5752.000	3580.000
754.000	5753.000	8170.000
755.000	5754.000	323730.000
756.000	5755.000	31390.000
757.000	5756.000	2880.000
758.000	5757.000	2020.000
759.000	5758.000	15780.000
760.000	5759.000	8910.000
761.000	5760.000	7660.000
762.000	5761.000	6290.000
763.000	5762.000	5170.000
764.000	5763.000	5140.000
765.000	5764.000	4080.000
766.000	5765.000	4090.000
767.000	5766.000	880.000
768.000	5767.000	810.000
769.000	5768.000	800.000
770.000	5769.000	670.000
771.000	5770.000	630.000
772.000	5771.000	980.000
773.000	5772.000	620.000
774.000	5773.000	940.000
775.000	5774.000	1160.000
776.000	5775.000	64880.000
777.000	5776.000	690.000
778.000	5777.000	590.000
779.000	5778.000	800.000
780.000	5779.000	32570.000
781.000	5780.000	940.000
782.000	5781.000	610.000
783.000	5782.000	710.000
784.000	5783.000	640.000
785.000	5784.000	670.000
786.000	5785.000	810.000
787.000	5786.000	14740.000
788.000	5787.000	530.000
789.000	5788.000	510.000
790.000	5789.000	540.000
791.000	5790.000	550.000
792.000	5791.000	3290.000
793.000	5792.000	440.000
794.000	5793.000	620.000
795.000	5794.000	550.000
796.000	5795.000	490.000
797.000	5796.000	480.000
798.000	5797.000	550.000
799.000	5798.000	730.000
800.000	5799.000	580.000
801.000	5800.000	670.000
802.000	5801.000	500.000
803.000	5802.000	740.000
804.000	5803.000	560.000
805.000	5804.000	730.000
806.000	5805.000	910.000
807.000	5806.000	800.000
808.000	5807.000	3010.000
809.000	5808.000	950.000
810.000	5809.000	990.000
811.000	5810.000	1510.000
812.000	5811.000	1420.000
813.000	5812.000	2160.000
814.000	5813.000	2280.000
815.000	5814.000	4080.000
816.000	5815.000	6870.000
817.000	5816.000	21650.000
818.000	5817.000	3875330.000
819.000	5818.000	15390.000
820.000	5819.000	3830.000
821.000	5820.000	5620.000
822.000	5821.000	21420.000
823.000	5822.000	14610.000
824.000	5823.000	11470.000
825.000	5824.000	9680.000
826.000	5825.000	8510.000
827.000	5826.000	7410.000
828.000	5827.000	6440.000
829.000	5828.000	4350.000
830.000	5829.000	860.000
831.000	5830.000	640.000
832.000	5831.000	520.000
833.000	5832.000	610.000
834.000	5833.000	590.000
835.000	5834.000	2550.000
836.000	5835.000	870.000
837.000	5836.000	730.000
838.000	5837.000	2420.000
839.000	5838.000	2140.000
840.000	5839.000	730.000
841.000	5840.000	710.000
842.000	5841.000	840.000
843.000	5842.000	950.000
844.000	5843.000	870.000
845.000	5844.000	1350.000
846.000	5845.000	2080.000
847.000	5846.000	4020.000
848.000	5847.000	50960.000
849.000	5848.000	143980.000
850.000	5849.000	1850.000
851.000	5850.000	1360.000
852.000	5851.000	5700.000
853.000	5852.000	4630.000
854.000	5853.000	3620.000
855.000	5854.000	3190.000
856.000	5855.000	2970.000
857.000	5856.000	2290.000
858.000	5857.000	2360.000
859.000	5858.000	2400.000
860.000	5859.000	850.000
861.000	5860.000	28250.000
862.000	5861.000	560.000
863.000	5862.000	580.000
864.000	5863.000	770.000
865.000	5864.000	7910.000
866.000	5865.000	550.000
867.000	5866.000	570.000
868.000	5867.000	500.000
869.000	5868.000	340.000
870.000	5869.000	640.000
871.000	5870.000	800.000
872.000	5871.000	480.000
873.000	5872.000	680.000
874.000	5873.000	6430.000
875.000	5874.000	570.000
876.000	5875.000	660.000
877.000	5876.000	510.000
878.000	5877.000	520.000
879.000	5878.000	580.000
880.000	5879.000	530.000
881.000	5880.000	410.000
882.000	5881.000	490.000
883.000	5882.000	620.000
884.000	5883.000	380.000
885.000	5884.000	490.000
886.000	5885.000	440.000
887.000	5886.000	450.000
888.000	5887.000	520.000
889.000	5888.000	540.000
890.000	5889.000	420.000
891.000	5890.000	440.000
892.000	5891.000	660.000
893.000	5892.000	530.000
894.000	5893.000	600.000
895.000	5894.000	690.000
896.000	5895.000	740.000
897.000	5896.000	860.000
898.000	5897.000	900.000
899.000	5898.000	960.000
900.000	5899.000	1890.000
901.000	5900.000	3220.000
902.000	5901.000	18340.000
903.000	5902.000	583960.000
904.000	5903.000	2010.000
905.000	5904.000	1200.000
906.000	5905.000	3950.000
907.000	5906.000	5280.000
908.000	5907.000	4350.000
909.000	5908.000	3410.000
910.000	5909.000	2840.000
911.000	5910.000	2790.000
912.000	5911.000	2270.000
913.000	5912.000	2320.000
914.000	5913.000	930.000
915.000	5914.000	610.000
916.000	5915.000	580.000
917.000	5916.000	500.000
918.000	5917.000	510.000
919.000	5918.000	2150.000
920.000	5919.000	530.000
921.000	5920.000	630.000
922.000	5921.000	570.000
923.000	5922.000	530.000
924.000	5923.000	420.000
925.000	5924.000	630.000
926.000	5925.000	580.000
927.000	5926.000	430.000
928.000	5927.000	580.000
929.000	5928.000	380.000
930.000	5929.000	480.000
931.000	5930.000	710.000
932.000	5931.000	610.000
933.000	5932.000	610.000
934.000	5933.000	710.000
935.000	5934.000	760.000
936.000	5935.000	910.000
937.000	5936.000	2470.000
938.000	5937.000	980.000
939.000	5938.000	980.000
940.000	5939.000	1120.000
941.000	5940.000	1420.000
942.000	5941.000	1480.000
943.000	5942.000	2310.000
944.000	5943.000	3510.000
945.000	5944.000	7420.000
946.000	5945.000	23140.000
947.000	5946.000	4536740.000
948.000	5947.000	9270.000
949.000	5948.000	3230.000
950.000	5949.000	6290.000
951.000	5950.000	16960.000
952.000	5951.000	11990.000
953.000	5952.000	9840.000
954.000	5953.000	8910.000
955.000	5954.000	7600.000
956.000	5955.000	7410.000
957.000	5956.000	5650.000
958.000	5957.000	1740.000
959.000	5958.000	1360.000
960.000	5959.000	1590.000
961.000	5960.000	1470.000
962.000	5961.000	1900.000
963.000	5962.000	2280.000
964.000	5963.000	2210.000
965.000	5964.000	3590.000
966.000	5965.000	6170.000
967.000	5966.000	15510.000
968.000	5967.000	491030.000
969.000	5968.000	78600.000
970.000	5969.000	6660.000
971.000	5970.000	3570.000
972.000	5971.000	28920.000
973.000	5972.000	19130.000
974.000	5973.000	14680.000
975.000	5974.000	11910.000
976.000	5975.000	10190.000
977.000	5976.000	9350.000
978.000	5977.000	8730.000
979.000	5978.000	9570.000
980.000	5979.000	1620.000
981.000	5980.000	1090.000
982.000	5981.000	1220.000
983.000	5982.000	1520.000
984.000	5983.000	1520.000
985.000	5984.000	1410.000
986.000	5985.000	1590.000
987.000	5986.000	1390.000
988.000	5987.000	1240.000
989.000	5988.000	980.000
990.000	5989.000	2180.000
991.000	5990.000	1210.000
992.000	5991.000	1050.000
993.000	5992.000	1010.000
994.000	5993.000	1020.000
995.000	5994.000	1180.000
996.000	5995.000	1140.000
997.000	5996.000	1080.000
998.000	5997.000	1150.000
999.000	5998.000	1430.000
1000.000	5999.000	2980.000
1001.000	6000.000	227890.000
1002.000	6001.000	1370.000
1003.000	6002.000	1510.000
1004.000	6003.000	1820.000
1005.000	6004.000	2170.000
1006.000	6005.000	2190.000
1007.000	6006.000	2420.000
1008.000	6007.000	2210.000
1009.000	6008.000	2610.000
1010.000	6009.000	3290.000
1011.000	6010.000	4210.000
1012.000	6011.000	5950.000
1013.000	6012.000	10650.000
1014.000	6013.000	30880.000
1015.000	6014.000	2699490.000
1016.000	6015.000	51840.000
1017.000	6016.000	7500.000
1018.000	6017.000	6730.000
1019.000	6018.000	56200.000
1020.000	6019.000	31170.000
1021.000	6020.000	24780.000
1022.000	6021.000	20830.000
1023.000	6022.000	17770.000
1024.000	6023.000	14850.000
1025.000	6024.000	13500.000
1026.000	6025.000	7660.000
1027.000	6026.000	1570.000
1028.000	6027.000	2180.000
1029.000	6028.000	1510.000
1030.000	6029.000	1900.000
1031.000	6030.000	1750.000
1032.000	6031.000	2480.000
1033.000	6032.000	3570.000
1034.000	6033.000	7710.000
1035.000	6034.000	99170.000
1036.000	6035.000	117040.000
1037.000	6036.000	3850.000
1038.000	6037.000	2040.000
1039.000	6038.000	13310.000
1040.000	6039.000	9540.000
1041.000	6040.000	8440.000
1042.000	6041.000	6520.000
1043.000	6042.000	5510.000
1044.000	6043.000	5570.000
1045.000	6044.000	4650.000
1046.000	6045.000	5180.000
1047.000	6046.000	8530.000
1048.000	6047.000	840.000
1049.000	6048.000	840.000
1050.000	6049.000	880.000
1051.000	6050.000	1000.000
1052.000	6051.000	620.000
1053.000	6052.000	960.000
1054.000	6053.000	22810.000
1055.000	6054.000	1300.000
1056.000	6055.000	800.000
1057.000	6056.000	830.000
1058.000	6057.000	600.000
1059.000	6058.000	730.000
1060.000	6059.000	780.000
1061.000	6060.000	4270.000
1062.000	6061.000	620.000
1063.000	6062.000	580.000
1064.000	6063.000	620.000
1065.000	6064.000	2120.000
1066.000	6065.000	730.000
1067.000	6066.000	580.000
1068.000	6067.000	570.000
1069.000	6068.000	700.000
1070.000	6069.000	550.000
1071.000	6070.000	740.000
1072.000	6071.000	630.000
1073.000	6072.000	650.000
1074.000	6073.000	540.000
1075.000	6074.000	940.000
1076.000	6075.000	670.000
1077.000	6076.000	870.000
1078.000	6077.000	1870.000
1079.000	6078.000	760.000
1080.000	6079.000	880.000
1081.000	6080.000	890.000
1082.000	6081.000	990.000
1083.000	6082.000	1110.000
1084.000	6083.000	1170.000
1085.000	6084.000	1580.000
1086.000	6085.000	3610.000
1087.000	6086.000	4580.000
1088.000	6087.000	15190.000
1089.000	6088.000	3314550.000
1090.000	6089.000	7340.000
1091.000	6090.000	2170.000
1092.000	6091.000	4220.000
1093.000	6092.000	10910.000
1094.000	6093.000	8890.000
1095.000	6094.000	7280.000
1096.000	6095.000	5770.000
1097.000	6096.000	5180.000
1098.000	6097.000	4510.000
1099.000	6098.000	4530.000
1100.000	6099.000	920.000
1101.000	6100.000	820.000
1102.000	6101.000	660.000
1103.000	6102.000	470.000
1104.000	6103.000	660.000
1105.000	6104.000	790.000
1106.000	6105.000	700.000
1107.000	6106.000	610.000
1108.000	6107.000	700.000
1109.000	6108.000	520.000
1110.000	6109.000	560.000
1111.000	6110.000	530.000
1112.000	6111.000	690.000
1113.000	6112.000	780.000
1114.000	6113.000	560.000
1115.000	6114.000	690.000
1116.000	6115.000	600.000
1117.000	6116.000	600.000
1118.000	6117.000	2690.000
1119.000	6118.000	650.000
1120.000	6119.000	680.000
1121.000	6120.000	730.000
1122.000	6121.000	620.000
1123.000	6122.000	770.000
1124.000	6123.000	1080.000
1125.000	6124.000	650.000
1126.000	6125.000	920.000
1127.000	6126.000	910.000
1128.000	6127.000	950.000
1129.000	6128.000	980.000
1130.000	6129.000	1530.000
1131.000	6130.000	1240.000
1132.000	6131.000	1530.000
1133.000	6132.000	1690.000
1134.000	6133.000	1910.000
1135.000	6134.000	3610.000
1136.000	6135.000	7320.000
1137.000	6136.000	22210.000
1138.000	6137.000	4326980.000
1139.000	6138.000	13230.000
1140.000	6139.000	3300.000
1141.000	6140.000	5840.000
1142.000	6141.000	20930.000
1143.000	6142.000	15160.000
1144.000	6143.000	12570.000
1145.000	6144.000	10110.000
1146.000	6145.000	9170.000
1147.000	6146.000	8080.000
1148.000	6147.000	7380.000
1149.000	6148.000	1670.000
1150.000	6149.000	780.000
1151.000	6150.000	790.000
1152.000	6151.000	640.000
1153.000	6152.000	720.000
1154.000	6153.000	690.000
1155.000	6154.000	710.000
1156.000	6155.000	840.000
1157.000	6156.000	770.000
1158.000	6157.000	870.000
1159.000	6158.000	820.000
1160.000	6159.000	570.000
1161.000	6160.000	770.000
1162.000	6161.000	650.000
1163.000	6162.000	620.000
1164.000	6163.000	750.000
1165.000	6164.000	4690.000
1166.000	6165.000	1160.000
1167.000	6166.000	840.000
1168.000	6167.000	810.000
1169.000	6168.000	930.000
1170.000	6169.000	1150.000
1171.000	6170.000	950.000
1172.000	6171.000	1530.000
1173.000	6172.000	2660.000
1174.000	6173.000	4100.000
1175.000	6174.000	14040.000
1176.000	6175.000	2723870.000
1177.000	6176.000	5400.000
1178.000	6177.000	2220.000
1179.000	6178.000	3610.000
1180.000	6179.000	8710.000
1181.000	6180.000	7210.000
1182.000	6181.000	5930.000
1183.000	6182.000	4680.000
1184.000	6183.000	4050.000
1185.000	6184.000	9050.000
1186.000	6185.000	3670.000
1187.000	6186.000	1080.000
1188.000	6187.000	880.000
1189.000	6188.000	810.000
1190.000	6189.000	770.000
1191.000	6190.000	1000.000
1192.000	6191.000	1140.000
1193.000	6192.000	940.000
1194.000	6193.000	1160.000
1195.000	6194.000	1360.000
1196.000	6195.000	1370.000
1197.000	6196.000	1440.000
1198.000	6197.000	1850.000
1199.000	6198.000	6860.000
1200.000	6199.000	2520.000
1201.000	6200.000	2680.000
1202.000	6201.000	11230.000
1203.000	6202.000	8070.000
1204.000	6203.000	19780.000
1205.000	6204.000	289670.000
1206.000	6205.000	258370.000
1207.000	6206.000	8680.000
1208.000	6207.000	5080.000
1209.000	6208.000	38990.000
1210.000	6209.000	30400.000
1211.000	6210.000	22900.000
1212.000	6211.000	18970.000
1213.000	6212.000	16030.000
1214.000	6213.000	14910.000
1215.000	6214.000	11880.000
1216.000	6215.000	7740.000
1217.000	6216.000	1320.000
1218.000	6217.000	920.000
1219.000	6218.000	940.000
1220.000	6219.000	880.000
1221.000	6220.000	1040.000
1222.000	6221.000	870.000
1223.000	6222.000	2110.000
1224.000	6223.000	840.000
1225.000	6224.000	1010.000
1226.000	6225.000	910.000
1227.000	6226.000	1040.000
1228.000	6227.000	820.000
1229.000	6228.000	970.000
1230.000	6229.000	1020.000
1231.000	6230.000	910.000
1232.000	6231.000	940.000
1233.000	6232.000	1000.000
1234.000	6233.000	990.000
1235.000	6234.000	850.000
1236.000	6235.000	1490.000
1237.000	6236.000	1050.000
1238.000	6237.000	1150.000
1239.000	6238.000	1200.000
1240.000	6239.000	1000.000
1241.000	6240.000	1030.000
1242.000	6241.000	1200.000
1243.000	6242.000	1400.000
1244.000	6243.000	1400.000
1245.000	6244.000	1360.000
1246.000	6245.000	1960.000
1247.000	6246.000	2270.000
1248.000	6247.000	2310.000
1249.000	6248.000	2660.000
1250.000	6249.000	4310.000
1251.000	6250.000	6790.000
1252.000	6251.000	14110.000
1253.000	6252.000	73360.000
1254.000	6253.000	3320820.000
1255.000	6254.000	11160.000
1256.000	6255.000	4430.000
1257.000	6256.000	20700.000
1258.000	6257.000	27940.000
1259.000	6258.000	22410.000
1260.000	6259.000	17730.000
1261.000	6260.000	15230.000
1262.000	6261.000	14000.000
1263.000	6262.000	13350.000
1264.000	6263.000	13350.000
1265.000	6264.000	4120.000
1266.000	6265.000	4170.000
1267.000	6266.000	4670.000
1268.000	6267.000	5410.000
1269.000	6268.000	7970.000
1270.000	6269.000	13330.000
1271.000	6270.000	27330.000
1272.000	6271.000	106910.000
1273.000	6272.000	11193180.000
1274.000	6273.000	45630.000
1275.000	6274.000	12210.000
1276.000	6275.000	26480.000
1277.000	6276.000	79020.000
1278.000	6277.000	59270.000
1279.000	6278.000	46720.000
1280.000	6279.000	39270.000
1281.000	6280.000	34260.000
1282.000	6281.000	29740.000
1283.000	6282.000	34090.000
1284.000	6283.000	2860.000
1285.000	6284.000	2010.000
1286.000	6285.000	1720.000
1287.000	6286.000	1120.000
1288.000	6287.000	1390.000
1289.000	6288.000	1580.000
1290.000	6289.000	1290.000
1291.000	6290.000	1340.000
1292.000	6291.000	2650.000
1293.000	6292.000	1300.000
1294.000	6293.000	1350.000
1295.000	6294.000	1170.000
1296.000	6295.000	1320.000
1297.000	6296.000	1140.000
1298.000	6297.000	970.000
1299.000	6298.000	1000.000
1300.000	6299.000	1080.000
1301.000	6300.000	810.000
1302.000	6301.000	870.000
1303.000	6302.000	1080.000
1304.000	6303.000	1080.000
1305.000	6304.000	1030.000
1306.000	6305.000	890.000
1307.000	6306.000	830.000
1308.000	6307.000	730.000
1309.000	6308.000	770.000
1310.000	6309.000	700.000
1311.000	6310.000	670.000
1312.000	6311.000	860.000
1313.000	6312.000	740.000
1314.000	6313.000	560.000
1315.000	6314.000	6860.000
1316.000	6315.000	820.000
1317.000	6316.000	700.000
1318.000	6317.000	570.000
1319.000	6318.000	660.000
1320.000	6319.000	600.000
1321.000	6320.000	570.000
1322.000	6321.000	610.000
1323.000	6322.000	660.000
1324.000	6323.000	600.000
1325.000	6324.000	500.000
1326.000	6325.000	560.000
1327.000	6326.000	610.000
1328.000	6327.000	560.000
1329.000	6328.000	760.000
1330.000	6329.000	780.000
1331.000	6330.000	590.000
1332.000	6331.000	630.000
1333.000	6332.000	470.000
1334.000	6333.000	580.000
1335.000	6334.000	660.000
1336.000	6335.000	600.000
1337.000	6336.000	510.000
1338.000	6337.000	670.000
1339.000	6338.000	620.000
1340.000	6339.000	470.000
1341.000	6340.000	480.000
1342.000	6341.000	500.000
1343.000	6342.000	640.000
1344.000	6343.000	630.000
1345.000	6344.000	440.000
1346.000	6345.000	510.000
1347.000	6346.000	600.000
1348.000	6347.000	610.000
1349.000	6348.000	640.000
1350.000	6349.000	420.000
1351.000	6350.000	550.000
1352.000	6351.000	700.000
1353.000	6352.000	520.000
1354.000	6353.000	660.000
1355.000	6354.000	450.000
1356.000	6355.000	710.000
1357.000	6356.000	520.000
1358.000	6357.000	720.000
1359.000	6358.000	710.000
1360.000	6359.000	710.000
1361.000	6360.000	810.000
1362.000	6361.000	880.000
1363.000	6362.000	850.000
1364.000	6363.000	960.000
1365.000	6364.000	970.000
1366.000	6365.000	1060.000
1367.000	6366.000	1360.000
1368.000	6367.000	1610.000
1369.000	6368.000	1640.000
1370.000	6369.000	1860.000
1371.000	6370.000	2940.000
1372.000	6371.000	2860.000
1373.000	6372.000	4340.000
1374.000	6373.000	8640.000
1375.000	6374.000	19920.000
1376.000	6375.000	269480.000
1377.000	6376.000	409980.000
1378.000	6377.000	10300.000
1379.000	6378.000	5080.000
1380.000	6379.000	37950.000
1381.000	6380.000	30540.000
1382.000	6381.000	24120.000
1383.000	6382.000	20840.000
1384.000	6383.000	17150.000
1385.000	6384.000	14380.000
1386.000	6385.000	12930.000
1387.000	6386.000	5670.000
1388.000	6387.000	1520.000
1389.000	6388.000	850.000
1390.000	6389.000	720.000
1391.000	6390.000	870.000
1392.000	6391.000	880.000
1393.000	6392.000	1220.000
1394.000	6393.000	1140.000
1395.000	6394.000	1250.000
1396.000	6395.000	1010.000
1397.000	6396.000	1220.000
1398.000	6397.000	1300.000
1399.000	6398.000	2080.000
1400.000	6399.000	2460.000
1401.000	6400.000	5580.000
1402.000	6401.000	21340.000
1403.000	6402.000	3121520.000
1404.000	6403.000	6230.000
1405.000	6404.000	2570.000
1406.000	6405.000	5630.000
1407.000	6406.000	12040.000
1408.000	6407.000	9120.000
1409.000	6408.000	7740.000
1410.000	6409.000	6410.000
1411.000	6410.000	5810.000
1412.000	6411.000	4930.000
1413.000	6412.000	4310.000
1414.000	6413.000	760.000
1415.000	6414.000	830.000
1416.000	6415.000	700.000
1417.000	6416.000	840.000
1418.000	6417.000	610.000
1419.000	6418.000	680.000
1420.000	6419.000	520.000
1421.000	6420.000	640.000
1422.000	6421.000	410.000
1423.000	6422.000	510.000
1424.000	6423.000	570.000
1425.000	6424.000	520.000
1426.000	6425.000	560.000
1427.000	6426.000	430.000
1428.000	6427.000	540.000
1429.000	6428.000	630.000
1430.000	6429.000	470.000
1431.000	6430.000	550.000
1432.000	6431.000	810.000
1433.000	6432.000	1120.000
1434.000	6433.000	540.000
1435.000	6434.000	660.000
1436.000	6435.000	480.000
1437.000	6436.000	530.000
1438.000	6437.000	660.000
1439.000	6438.000	550.000
1440.000	6439.000	630.000
1441.000	6440.000	540.000
1442.000	6441.000	470.000
1443.000	6442.000	520.000
1444.000	6443.000	640.000
1445.000	6444.000	440.000
1446.000	6445.000	490.000
1447.000	6446.000	620.000
1448.000	6447.000	440.000
1449.000	6448.000	480.000
1450.000	6449.000	420.000
1451.000	6450.000	410.000
1452.000	6451.000	480.000
1453.000	6452.000	520.000
1454.000	6453.000	490.000
1455.000	6454.000	570.000
1456.000	6455.000	420.000
1457.000	6456.000	630.000
1458.000	6457.000	740.000
1459.000	6458.000	640.000
1460.000	6459.000	770.000
1461.000	6460.000	780.000
1462.000	6461.000	730.000
1463.000	6462.000	1230.000
1464.000	6463.000	1050.000
1465.000	6464.000	2150.000
1466.000	6465.000	3090.000
1467.000	6466.000	7200.000
1468.000	6467.000	40180.000
1469.000	6468.000	1348530.000
1470.000	6469.000	6620.000
1471.000	6470.000	2850.000
1472.000	6471.000	9310.000
1473.000	6472.000	12650.000
1474.000	6473.000	9410.000
1475.000	6474.000	7510.000
1476.000	6475.000	6250.000
1477.000	6476.000	5990.000
1478.000	6477.000	4390.000
1479.000	6478.000	2210.000
1480.000	6479.000	740.000
1481.000	6480.000	630.000
1482.000	6481.000	600.000
1483.000	6482.000	470.000
1484.000	6483.000	430.000
1485.000	6484.000	560.000
1486.000	6485.000	460.000
1487.000	6486.000	490.000
1488.000	6487.000	550.000
1489.000	6488.000	610.000
1490.000	6489.000	620.000
1491.000	6490.000	530.000
1492.000	6491.000	470.000
1493.000	6492.000	410.000
1494.000	6493.000	480.000
1495.000	6494.000	640.000
1496.000	6495.000	450.000
1497.000	6496.000	580.000
1498.000	6497.000	540.000
1499.000	6498.000	450.000
1500.000	6499.000	470.000
1501.000	6500.000	460.000
1502.000	6501.000	430.000
1503.000	6502.000	590.000
1504.000	6503.000	520.000
1505.000	6504.000	390.000
1506.000	6505.000	460.000
1507.000	6506.000	410.000
1508.000	6507.000	490.000
1509.000	6508.000	400.000
1510.000	6509.000	380.000
1511.000	6510.000	360.000
1512.000	6511.000	520.000
1513.000	6512.000	330.000
1514.000	6513.000	510.000
1515.000	6514.000	510.000
1516.000	6515.000	490.000
1517.000	6516.000	470.000
1518.000	6517.000	430.000
1519.000	6518.000	430.000
1520.000	6519.000	440.000
1521.000	6520.000	730.000
1522.000	6521.000	3530.000
1523.000	6522.000	540.000
1524.000	6523.000	390.000
1525.000	6524.000	570.000
1526.000	6525.000	440.000
1527.000	6526.000	570.000
1528.000	6527.000	440.000
1529.000	6528.000	590.000
1530.000	6529.000	510.000
1531.000	6530.000	490.000
1532.000	6531.000	540.000
1533.000	6532.000	430.000
1534.000	6533.000	480.000
1535.000	6534.000	720.000
1536.000	6535.000	930.000
1537.000	6536.000	910.000
1538.000	6537.000	1040.000
1539.000	6538.000	990.000
1540.000	6539.000	1260.000
1541.000	6540.000	1290.000
1542.000	6541.000	1810.000
1543.000	6542.000	2210.000
1544.000	6543.000	3240.000
1545.000	6544.000	5440.000
1546.000	6545.000	12610.000
1547.000	6546.000	88280.000
1548.000	6547.000	1585500.000
1549.000	6548.000	12160.000
1550.000	6549.000	4880.000
1551.000	6550.000	20070.000
1552.000	6551.000	19830.000
1553.000	6552.000	15480.000
1554.000	6553.000	12680.000
1555.000	6554.000	10740.000
1556.000	6555.000	8890.000
1557.000	6556.000	8750.000
1558.000	6557.000	1730.000
1559.000	6558.000	880.000
1560.000	6559.000	610.000
1561.000	6560.000	780.000
1562.000	6561.000	650.000
1563.000	6562.000	760.000
1564.000	6563.000	570.000
1565.000	6564.000	680.000
1566.000	6565.000	570.000
1567.000	6566.000	650.000
1568.000	6567.000	480.000
1569.000	6568.000	560.000
1570.000	6569.000	620.000
1571.000	6570.000	660.000
1572.000	6571.000	730.000
1573.000	6572.000	530.000
1574.000	6573.000	850.000
1575.000	6574.000	680.000
1576.000	6575.000	700.000
1577.000	6576.000	1050.000
1578.000	6577.000	800.000
1579.000	6578.000	1040.000
1580.000	6579.000	1020.000
1581.000	6580.000	1180.000
1582.000	6581.000	1670.000
1583.000	6582.000	2660.000
1584.000	6583.000	5510.000
1585.000	6584.000	16700.000
1586.000	6585.000	2251870.000
1587.000	6586.000	20310.000
1588.000	6587.000	4310.000
1589.000	6588.000	3700.000
1590.000	6589.000	20690.000
1591.000	6590.000	12120.000
1592.000	6591.000	8640.000
1593.000	6592.000	7540.000
1594.000	6593.000	6290.000
1595.000	6594.000	5590.000
1596.000	6595.000	5720.000
1597.000	6596.000	640.000
1598.000	6597.000	780.000
1599.000	6598.000	620.000
1600.000	6599.000	360.000
1601.000	6600.000	490.000
1602.000	6601.000	500.000
1603.000	6602.000	520.000
1604.000	6603.000	560.000
1605.000	6604.000	530.000
1606.000	6605.000	520.000
1607.000	6606.000	1410.000
1608.000	6607.000	600.000
1609.000	6608.000	11570.000
1610.000	6609.000	500.000
1611.000	6610.000	480.000
1612.000	6611.000	630.000
1613.000	6612.000	460.000
1614.000	6613.000	390.000
1615.000	6614.000	460.000
1616.000	6615.000	440.000
1617.000	6616.000	510.000
1618.000	6617.000	440.000
1619.000	6618.000	550.000
1620.000	6619.000	450.000
1621.000	6620.000	440.000
1622.000	6621.000	350.000
1623.000	6622.000	400.000
1624.000	6623.000	590.000
1625.000	6624.000	290.000
1626.000	6625.000	380.000
1627.000	6626.000	410.000
1628.000	6627.000	560.000
1629.000	6628.000	480.000
1630.000	6629.000	360.000
1631.000	6630.000	320.000
1632.000	6631.000	380.000
1633.000	6632.000	420.000
1634.000	6633.000	440.000
1635.000	6634.000	450.000
1636.000	6635.000	350.000
1637.000	6636.000	370.000
1638.000	6637.000	410.000
1639.000	6638.000	350.000
1640.000	6639.000	360.000
1641.000	6640.000	470.000
1642.000	6641.000	370.000
1643.000	6642.000	360.000
1644.000	6643.000	340.000
1645.000	6644.000	420.000
1646.000	6645.000	340.000
1647.000	6646.000	380.000
1648.000	6647.000	390.000
1649.000	6648.000	380.000
1650.000	6649.000	330.000
1651.000	6650.000	370.000
